;Experimental Spectrum (Polarization=0.00): Lot "HF03615 SLOLOT 19" (326); Slot #19; Wafer "C2W19" [12/8/2016 3:47:44 PM]; MS Site #1; Die #20, ColRow[4,3]; Region Measurement Point #1; Point: (95984, 71176) - absolute; (6207, 33) - from die left-bottom corner; Focus Z: 9845 counts; MetrologyRecipe: "ENG\F028\F028-CMPMBIT-SL-NIT800"; MU Serial Number: 106626;
3263
4121
5390
6697
7963
9042
9727
10196
10275
10120
9695
9018
8212
7233
6079
4878
3653
2516
1496
743
320
282
635
1337
2300
3448
4666
5928
7168
8372
9527
10581
11558
12362
13103
13723
14328
14850
15292
15671
15927
16193
16342
16405
16347
16124
15773
15316
14878
14559
14519
14666
14954
15279
15587
15709
15642
15398
14854
14075
12883
11446
9721
7938
6207
4712
3612
2876
2430
2216
2112
2052
1980
1876
1724
1537
1331
1123
959
865
886
1049
1418
1984
2824
3876
5097
6546
8102
9768
11438
13074
14722
16228
17651
18918
20073
21130
22022
22822
23525
24148
24735
25184
25628
26016
26321
26612
26846
27046
27271
27407
27501
27566
27654
27695
27733
27769
27762
27747
27717
27711
27614
27575
27596
27495
27443
27358
27286
27127
27075
26983
26831
26696
26548
26393
26259
26131
25925
25831
25629
25506
25296
25129
24963
24770
24575
24374
24181
24005
23749
23564
23338
23152
22885
22647
22423
22223
21959
21720
21459
21249
20975
20692
20464
20209
19910
19695
19436
19176
18915
18661
18407
18157
17945
17727
17471
17270
17047
16875
16689
16494
16354
16167
16016
15889
15760
15658
15564
15506
15398
15381
15302
15325
15255
15248
15232
15270
15274
15318
15379
15392
15450
15527
15539
15608
15671
15784
15887
15980
16013
16099
16183
16277
16364
16453
16589
16621
16675
16768
16878
16892
16975
17044
17086
17116
17175
17196
17232
17273
17301
17323
17338
17329
17394
17375
17392
17385
17395
17363
17323
17321
17332
17295
17159
17168
17128
17075
16987
16944
16891
16835
16716
16634
16539
16436
232.117647058824 2.88235294117647 0 0 0
